File: Files_organized_for_plots/Centroid_old_vs_washed/XRD_130_Centroid16Mar22_Act16Nov22_B1_0714M_NaOH_LS0173_background_removed.xy
5.00773 831.9
5.060253 1071.6
5.112774 1037.8
5.165297 1043.7
5.217818 969.5
5.27034 813.4
5.322863 948.1
5.375384 841.4
5.427907 846.8
5.480429 815.1
5.53295 771.0
5.585473 738.7
5.637994 786.1
5.690516 776.5
5.743039 786.9
5.79556 742.9
5.848083 773.6
5.900604 729.4
5.953126 712.1
6.005649 774.1
6.05817 654.6
6.110693 632.8
6.163215 632.7
6.215736 756.0
6.268259 637.0
6.32078 699.0
6.373302 631.9
6.425825 710.1
6.478346 562.1
6.530869 642.8
6.583391 567.3
6.635912 632.1
6.688435 673.2
6.740956 682.9
6.793478 617.5
6.846001 611.3
6.898522 698.9
6.951045 622.4
7.003566 545.2
7.056088 617.5
7.108611 677.2
7.161132 661.0
7.213655 549.6
7.266177 683.3
7.318698 685.4
7.371221 609.3
7.423742 581.1
7.476264 555.9
7.528787 557.8
7.581308 557.8
7.633831 671.5
7.686352 655.5
7.738874 638.0
7.791397 666.2
7.843918 634.1
7.896441 660.4
7.948963 629.0
8.001485 559.4
8.054007 721.6
8.106528 711.2
8.159051 777.9
8.211573 763.5
8.264094 719.4
8.316616 793.0
8.369139 834.9
8.42166 871.9
8.474182 1000.2
8.526705 1067.5
8.579226 1130.5
8.631748 1242.3
8.684271 1275.7
8.736793 1168.1
8.789314 1223.1
8.841837 1069.1
8.894359 1042.5
8.94688 987.1
8.999402 991.5
9.051925 1061.3
9.104446 1099.7
9.156968 879.4
9.209491 946.2
9.262012 1094.3
9.314534 1047.0
9.367057 917.1
9.419579 1048.1
9.4721 1136.2
9.524623 1167.4
9.577145 1107.0
9.629666 1129.2
9.682188 1162.8
9.734711 1212.7
9.787232 1104.7
9.839754 1165.6
9.892277 1109.9
9.944798 1128.6
9.99732 1234.4
10.04984 1175.0
10.10236 1311.6
10.15489 1233.4
10.20741 1122.1
10.25993 1157.2
10.31245 1087.7
10.36497 1126.1
10.4175 1236.5
10.47002 1140.4
10.52254 1293.7
10.57506 1168.6
10.62758 1196.5
10.68011 1211.1
10.73263 1228.5
10.78515 1233.1
10.83767 993.7
10.89019 968.0
10.94272 972.7
10.99524 985.0
11.04776 968.0
11.10028 1111.2
11.1528 1121.5
11.20533 1162.2
11.25785 1443.3
11.31037 1573.2
11.36289 1579.0
11.41541 1364.2
11.46794 1249.9
11.52046 1181.6
11.57298 1013.8
11.6255 1013.6
11.67802 960.2
11.73055 1050.5
11.78307 1003.8
11.83559 1026.6
11.88811 949.4
11.94063 1078.1
11.99316 1081.6
12.04568 1036.5
12.0982 1112.5
12.15072 1061.8
12.20324 1092.5
12.25577 1176.2
12.30829 1144.7
12.36081 1035.6
12.41333 1082.2
12.46585 1103.3
12.51838 1102.6
12.5709 1069.1
12.62342 1024.3
12.67594 891.1
12.72846 943.2
12.78099 989.0
12.83351 949.2
12.88603 956.3
12.93855 871.5
12.99107 921.3
13.0436 904.4
13.09612 749.7
13.14864 799.3
13.20116 667.2
13.25368 665.1
13.30621 690.0
13.35873 790.9
13.41125 656.6
13.46377 663.7
13.51629 617.5
13.56882 725.6
13.62134 665.9
13.67386 607.5
13.72638 589.7
13.7789 654.5
13.83143 562.8
13.88395 731.5
13.93647 505.4
13.98899 550.6
14.04151 536.6
14.09404 496.9
14.14656 510.5
14.19908 529.6
14.2516 621.3
14.30412 563.3
14.35665 645.3
14.40917 524.4
14.46169 538.1
14.51421 595.3
14.56673 522.6
14.61926 561.8
14.67178 563.0
14.7243 609.1
14.77682 605.0
14.82934 603.3
14.88187 548.3
14.93439 646.8
14.98691 621.8
15.03943 604.5
15.09195 688.3
15.14448 611.2
15.197 600.3
15.24952 679.0
15.30204 761.4
15.35456 548.9
15.40709 730.2
15.45961 695.8
15.51213 709.1
15.56465 656.2
15.61717 557.1
15.6697 717.6
15.72222 578.9
15.77474 630.3
15.82726 670.1
15.87978 601.5
15.93231 581.0
15.98483 626.4
16.03735 653.8
16.08987 671.7
16.1424 702.7
16.19492 678.0
16.24744 619.9
16.29996 604.8
16.35248 609.1
16.405 705.8
16.45753 662.2
16.51005 662.1
16.56257 631.1
16.61509 711.3
16.66761 631.0
16.72014 674.3
16.77266 804.7
16.82518 738.7
16.8777 861.2
16.93023 745.6
16.98275 1009.7
17.03527 929.2
17.08779 1108.6
17.14031 1150.9
17.19283 1246.7
17.24536 1268.5
17.29788 1175.4
17.3504 1254.8
17.40292 1188.2
17.45544 1209.9
17.50797 1090.9
17.56049 1130.7
17.61301 1118.1
17.66553 1005.9
17.71805 1059.4
17.77058 987.8
17.8231 1102.7
17.87562 887.4
17.92814 1063.6
17.98067 911.6
18.03319 988.1
18.08571 925.1
18.13823 1016.5
18.19075 967.4
18.24327 1052.8
18.2958 1008.8
18.34832 975.1
18.40084 852.6
18.45336 1109.4
18.50588 983.4
18.55841 987.5
18.61093 992.9
18.66345 915.2
18.71597 967.0
18.76849 983.7
18.82102 878.4
18.87354 947.9
18.92606 890.2
18.97858 961.9
19.03111 964.7
19.08363 927.4
19.13615 933.1
19.18867 961.1
19.24119 1012.4
19.29371 930.1
19.34624 1062.0
19.39876 931.6
19.45128 1072.4
19.5038 969.8
19.55632 1030.4
19.60885 1069.7
19.66137 886.6
19.71389 1085.3
19.76641 980.1
19.81894 1009.2
19.87146 1018.8
19.92398 1038.5
19.9765 1009.2
20.02902 1006.1
20.08154 1036.4
20.13407 1081.5
20.18659 942.2
20.23911 1047.9
20.29163 1073.4
20.34415 927.4
20.39668 1107.2
20.4492 1062.8
20.50172 1023.8
20.55424 1107.5
20.60676 1091.2
20.65929 978.0
20.71181 1181.1
20.76433 1053.6
20.81685 1102.4
20.86938 987.4
20.9219 1072.9
20.97442 1126.2
21.02694 1101.3
21.07946 1086.4
21.13198 1175.1
21.18451 1055.4
21.23703 1166.3
21.28955 1082.7
21.34207 1139.8
21.39459 1138.1
21.44712 1094.7
21.49964 1149.3
21.55216 1167.2
21.60468 1174.7
21.6572 1218.4
21.70973 1144.5
21.76225 1140.6
21.81477 1176.8
21.86729 1139.8
21.91982 1254.9
21.97234 1300.2
22.02486 1302.3
22.07738 1291.0
22.1299 1319.7
22.18242 1265.4
22.23495 1391.2
22.28747 1541.9
22.33999 1514.5
22.39251 1571.6
22.44503 1662.6
22.49756 1733.3
22.55008 1858.6
22.6026 1855.1
22.65512 2052.2
22.70764 1892.7
22.76017 1762.0
22.81269 1704.7
22.86521 1614.9
22.91773 1566.0
22.97025 1480.6
23.02278 1445.4
23.0753 1437.7
23.12782 1346.9
23.18034 1364.8
23.23286 1291.8
23.28539 1301.8
23.33791 1374.0
23.39043 1321.5
23.44295 1377.6
23.49547 1353.9
23.548 1331.4
23.60052 1380.4
23.65304 1289.3
23.70556 1325.0
23.75809 1348.5
23.81061 1315.0
23.86313 1339.4
23.91565 1303.8
23.96817 1286.7
24.02069 1259.0
24.07322 1290.0
24.12574 1227.4
24.17826 1225.6
24.23078 1283.4
24.2833 1291.7
24.33583 1199.9
24.38835 1063.6
24.44087 1249.5
24.49339 1176.2
24.54591 1146.4
24.59844 1108.2
24.65096 1212.3
24.70348 1063.7
24.756 1233.2
24.80853 994.9
24.86105 1115.1
24.91357 1109.9
24.96609 1043.7
25.01861 1078.8
25.07113 1064.1
25.12366 996.0
25.17618 956.6
25.2287 1046.5
25.28122 1053.0
25.33374 1023.3
25.38627 1093.8
25.43879 1084.7
25.49131 1080.8
25.54383 1017.8
25.59635 1090.4
25.64888 1041.1
25.7014 1024.9
25.75392 1112.9
25.80644 1060.8
25.85896 1130.8
25.91149 1085.5
25.96401 1172.3
26.01653 1111.5
26.06905 1287.3
26.12157 1259.6
26.1741 1284.0
26.22662 1234.5
26.27914 1224.6
26.33166 1200.4
26.38418 1171.7
26.43671 1144.7
26.48923 1098.2
26.54175 995.6
26.59427 1092.2
26.6468 1026.4
26.69932 944.9
26.75184 1013.7
26.80436 1020.9
26.85688 970.3
26.9094 1009.5
26.96193 1022.6
27.01445 1002.2
27.06697 1010.4
27.11949 905.9
27.17201 941.6
27.22454 987.7
27.27706 922.1
27.32958 975.5
27.3821 970.5
27.43462 927.8
27.48715 954.4
27.53967 894.2
27.59219 972.8
27.64471 873.3
27.69724 958.6
27.74976 933.7
27.80228 1010.0
27.8548 947.4
27.90732 929.2
27.95984 967.9
28.01237 991.9
28.06489 954.7
28.11741 986.6
28.16993 941.1
28.22245 846.9
28.27498 958.4
28.3275 869.7
28.38002 980.5
28.43254 934.8
28.48506 871.6
28.53759 963.2
28.59011 1034.7
28.64263 925.3
28.69515 916.7
28.74767 981.8
28.8002 978.0
28.85272 868.3
28.90524 847.6
28.95776 898.6
29.01028 986.0
29.06281 950.2
29.11533 967.4
29.16785 932.0
29.22037 947.7
29.27289 921.5
29.32542 970.9
29.37794 1015.0
29.43046 1014.8
29.48298 971.9
29.53551 993.2
29.58803 1221.0
29.64055 1049.8
29.69307 1099.4
29.74559 1106.6
29.79811 1129.2
29.85064 1166.5
29.90316 1120.7
29.95568 1203.6
30.0082 1160.1
30.06072 1103.6
30.11325 1106.9
30.16577 1100.2
30.21829 1117.5
30.27081 1095.3
30.32333 1071.1
30.37586 1038.8
30.42838 1044.6
30.4809 1116.3
30.53342 965.0
30.58595 1011.3
30.63847 1117.6
30.69099 953.1
30.74351 927.3
30.79603 975.9
30.84855 961.3
30.90108 932.6
30.9536 990.5
31.00612 921.9
31.05864 906.6
31.11116 969.6
31.16369 861.3
31.21621 935.7
31.26873 931.7
31.32125 919.8
31.37377 882.4
31.4263 893.6
31.47882 900.8
31.53134 872.4
31.58386 883.5
31.63638 871.4
31.68891 889.5
31.74143 906.2
31.79395 895.5
31.84647 874.3
31.89899 901.5
31.95152 768.3
32.00404 876.3
32.05656 877.0
32.10908 875.8
32.16161 841.0
32.21413 851.0
32.26665 861.0
32.31917 809.4
32.37169 879.4
32.42421 873.0
32.47674 817.2
32.52926 927.6
32.58178 824.6
32.6343 861.1
32.68682 866.0
32.73935 819.4
32.79187 804.9
32.84439 860.1
32.89691 853.1
32.94944 836.8
33.00196 877.7
33.05448 847.8
33.107 806.5
33.15952 824.1
33.21204 892.7
33.26457 817.5
33.31709 810.8
33.36961 800.8
33.42213 859.3
33.47466 962.3
33.52718 879.3
33.5797 889.0
33.63222 816.0
33.68474 867.6
33.73726 935.7
33.78979 925.1
33.84231 906.0
33.89483 866.3
33.94735 934.5
33.99987 876.1
34.05239 998.9
34.10492 1064.5
34.15744 1076.9
34.20996 1168.0
34.26249 1231.4
34.31501 1268.4
34.36753 1314.6
34.42005 1308.4
34.47257 1427.6
34.52509 1417.2
34.57762 1485.5
34.63014 1491.6
34.68266 1434.9
34.73518 1438.8
34.7877 1476.3
34.84023 1458.9
34.89275 1455.9
34.94527 1422.5
34.99779 1370.5
35.05032 1345.6
35.10284 1320.7
35.15536 1297.0
35.20788 1197.6
35.2604 1280.7
35.31292 1196.5
35.36545 1216.0
35.41797 1127.5
35.47049 1176.0
35.52301 1082.9
35.57553 1080.8
35.62806 1132.0
35.68058 1115.9
35.7331 1126.3
35.78562 1117.0
35.83815 1100.4
35.89067 1089.5
35.94319 1104.7
35.99571 1094.0
36.04823 1088.5
36.10075 1067.7
36.15327 1040.8
36.2058 1094.1
36.25832 984.6
36.31084 997.2
36.36337 979.2
36.41589 1113.7
36.46841 1064.0
36.52093 1043.3
36.57345 993.0
36.62597 1091.3
36.6785 1008.9
36.73102 1019.0
36.78354 1048.4
36.83606 1029.0
36.88858 1007.9
36.9411 1022.4
36.99363 1016.5
37.04615 966.3
37.09867 923.8
37.1512 933.4
37.20372 924.1
37.25624 917.2
37.30876 969.3
37.36128 912.5
37.4138 883.6
37.46633 959.8
37.51885 871.2
37.57137 802.6
37.62389 814.2
37.67641 887.9
37.72894 843.1
37.78146 821.0
37.83398 838.5
37.8865 834.1
37.93903 889.1
37.99155 876.1
38.04407 773.3
38.09659 847.8
38.14911 901.2
38.20163 748.1
38.25416 711.4
38.30668 805.1
38.3592 857.6
38.41172 853.3
38.46424 825.9
38.51677 775.7
38.56929 774.7
38.62181 791.8
38.67433 725.5
38.72686 836.4
38.77938 757.7
38.8319 764.0
38.88442 707.1
38.93694 683.1
38.98946 702.2
39.04198 810.1
39.09451 725.9
39.14703 698.9
39.19955 672.1
39.25208 701.3
39.3046 779.3
39.35712 714.0
39.40964 722.5
39.46216 733.1
39.51468 718.0
39.56721 738.8
39.61973 722.3
39.67225 720.6
39.72477 666.9
39.77729 701.4
39.82981 735.1
39.88234 679.9
39.93486 664.5
39.98738 658.4
40.03991 678.3
40.09243 636.9
40.14495 619.4
40.19747 681.1
40.24999 650.0
40.30251 635.6
40.35504 619.7
40.40756 723.6
40.46008 685.3
40.5126 698.8
40.56512 686.7
40.61765 696.7
40.67017 684.5
40.72269 671.5
40.77521 654.7
40.82774 610.6
40.88026 630.3
40.93278 625.1
40.9853 649.9
41.03782 642.3
41.09034 629.2
41.14287 560.2
41.19539 607.5
41.24791 635.9
41.30043 655.9
41.35295 546.2
41.40548 593.0
41.458 650.4
41.51052 661.9
41.56304 617.6
41.61557 594.1
41.66809 640.8
41.72061 590.7
41.77313 576.2
41.82565 618.2
41.87817 603.3
41.93069 512.9
41.98322 596.3
42.03574 596.7
42.08826 591.2
42.14079 553.5
42.19331 604.1
42.24583 595.6
42.29835 549.1
42.35087 523.8
42.40339 557.8
42.45592 557.6
42.50844 579.7
42.56096 578.8
42.61348 550.4
42.666 499.0
42.71852 587.6
42.77105 551.6
42.82357 578.4
42.87609 559.3
42.92862 507.8
42.98114 582.6
43.03366 612.1
43.08618 550.8
43.1387 546.7
43.19122 567.5
43.24375 571.7
43.29627 594.4
43.34879 571.4
43.40131 496.5
43.45383 500.5
43.50636 580.8
43.55888 571.4
43.6114 541.6
43.66392 592.3
43.71645 568.8
43.76897 568.3
43.82149 594.8
43.87401 624.6
43.92653 568.8
43.97905 569.1
44.03158 521.6
44.0841 561.6
44.13662 609.0
44.18914 574.5
44.24166 582.1
44.29419 610.4
44.34671 586.3
44.39923 610.0
44.45175 604.8
44.50428 629.9
44.5568 622.8
44.60932 609.0
44.66184 620.4
44.71436 578.1
44.76688 644.0
44.8194 618.1
44.87193 588.3
44.92445 695.7
44.97697 662.4
45.0295 631.3
45.08202 620.6
45.13454 652.1
45.18706 578.0
45.23958 610.3
45.2921 641.6
45.34463 634.3
45.39715 634.8
45.44967 651.4
45.50219 636.1
45.55471 594.3
45.60723 645.5
45.65976 629.3
45.71228 668.5
45.7648 663.6
45.81733 715.5
45.86985 635.3
45.92237 709.9
45.97489 708.3
46.02741 712.4
46.07993 721.8
46.13246 731.4
46.18498 762.9
46.2375 781.1
46.29002 734.2
46.34254 777.3
46.39507 764.4
46.44759 768.6
46.50011 773.7
46.55263 767.6
46.60516 760.0
46.65768 726.2
46.7102 713.9
46.76272 707.5
46.81524 756.6
46.86776 735.2
46.92029 677.8
46.97281 731.6
47.02533 714.0
47.07785 768.3
47.13037 696.0
47.1829 692.7
47.23542 712.7
47.28794 697.4
47.34046 743.7
47.39299 788.1
47.44551 655.1
47.49803 635.6
47.55055 655.8
47.60307 602.9
47.65559 647.7
47.70811 618.4
47.76064 620.1
47.81316 620.4
47.86568 607.7
47.91821 607.9
47.97073 694.6
48.02325 647.1
48.07577 554.5
48.12829 603.4
48.18081 575.5
48.23334 607.2
48.28586 571.0
48.33838 607.4
48.3909 615.7
48.44342 573.0
48.49594 556.2
48.54847 533.6
48.60099 516.8
48.65351 609.3
48.70604 496.3
48.75856 553.0
48.81108 561.3
48.8636 509.5
48.91612 565.4
48.96864 505.9
49.02117 529.4
49.07369 500.2
49.12621 492.2
49.17873 521.2
49.23125 539.5
49.28378 522.6
49.3363 511.0
49.38882 458.5
49.44134 489.7
49.49387 456.6
49.54639 453.7
49.59891 460.3
49.65143 489.3
49.70395 476.4
49.75647 460.2
49.809 425.9
49.86152 461.3
49.91404 466.5
49.96656 508.3
50.01908 514.0
50.07161 489.0
50.12413 510.9
50.17665 421.1
50.22917 431.5
50.2817 464.0
50.33422 543.2
50.38674 507.4
50.43926 526.5
50.49178 486.1
50.5443 494.3
50.59682 492.3
50.64935 500.3
50.70187 563.9
50.75439 464.0
50.80692 461.0
50.85944 475.9
50.91196 457.3
50.96448 438.7
51.017 498.6
51.06952 421.0
51.12205 500.4
51.17457 506.4
51.22709 514.7
51.27961 463.1
51.33213 462.9
51.38465 454.2
51.43718 488.0
51.4897 478.2
51.54222 480.7
51.59475 476.4
51.64727 469.5
51.69979 422.9
51.75231 471.1
51.80483 499.0
51.85735 524.0
51.90988 489.7
51.9624 516.5
52.01492 425.2
52.06744 444.6
52.11996 503.6
52.17249 414.2
52.22501 512.2
52.27753 532.2
52.33005 504.9
52.38258 430.0
52.4351 498.7
52.48762 532.3
52.54014 550.1
52.59266 542.7
52.64518 479.0
52.69771 463.2
52.75023 444.8
52.80275 477.3
52.85527 514.8
52.90779 553.4
52.96032 481.2
53.01284 530.7
53.06536 526.7
53.11788 525.6
53.1704 498.6
53.22293 506.3
53.27545 482.1
53.32797 539.6
53.38049 551.9
53.43301 521.7
53.48553 513.5
53.53806 516.2
53.59058 458.9
53.6431 511.9
53.69563 532.4
53.74815 496.0
53.80067 518.7
53.85319 535.8
53.90571 523.3
53.95823 505.9
54.01076 454.0
54.06328 459.9
54.1158 476.9
54.16832 498.6
54.22084 461.5
54.27337 442.3
54.32589 410.6
54.37841 489.5
54.43093 486.4
54.48346 490.5
54.53598 408.4
54.5885 478.3
54.64102 392.9
54.69354 501.2
54.74606 400.4
54.79859 441.6
54.85111 438.0
54.90363 416.7
54.95615 436.6
55.00867 411.4
55.0612 429.0
55.11372 422.9
55.16624 443.4
55.21876 444.2
55.27129 479.3
55.32381 463.1
55.37633 445.9
55.42885 438.1
55.48137 400.1
55.53389 425.0
55.58642 417.4
55.63894 456.2
55.69146 418.4
55.74398 461.9
55.7965 469.3
55.84903 491.9
55.90155 387.6
55.95407 431.3
56.00659 330.9
56.05911 451.4
56.11164 377.0
56.16416 496.8
56.21668 424.0
56.2692 478.9
56.32172 404.4
56.37424 405.3
56.42677 459.1
56.47929 375.6
56.53181 408.1
56.58434 403.1
56.63686 402.7
56.68938 439.1
56.7419 388.0
56.79442 416.5
56.84694 370.5
56.89947 451.7
56.95199 378.0
57.00451 393.5
57.05703 365.7
57.10955 330.9
57.16208 366.8
57.2146 433.2
57.26712 412.6
57.31964 410.5
57.37217 385.5
57.42469 374.0
57.47721 357.7
57.52973 399.7
57.58225 419.6
57.63477 378.2
57.6873 380.6
57.73982 362.7
57.79234 419.2
57.84486 336.3
57.89738 380.8
57.94991 368.3
58.00243 393.6
58.05495 428.0
58.10747 397.5
58.16 390.2
58.21252 423.0
58.26504 402.7
58.31756 362.3
58.37008 345.1
58.4226 390.3
58.47513 408.8
58.52765 362.9
58.58017 408.0
58.63269 350.3
58.68521 406.7
58.73774 331.3
58.79026 382.1
58.84278 392.0
58.8953 411.4
58.94782 375.8
59.00035 390.3
59.05287 349.3
59.10539 362.4
59.15791 338.8
59.21043 438.5
59.26295 376.6
59.31548 359.0
59.368 328.2
59.42052 396.9
59.47305 390.2
59.52557 436.8
59.57809 335.2
59.63061 389.8
59.68313 344.3
59.73565 401.4
59.78818 434.4
59.8407 379.5
59.89322 408.3
59.94574 339.5
59.99826 348.7
60.05079 377.2
60.10331 437.8
60.15583 392.0
60.20835 412.9
60.26088 410.2
60.3134 455.1
60.36592 423.8
60.41844 410.3
60.47096 442.1
60.52348 430.6
60.57601 463.3
60.62853 502.8
60.68105 474.1
60.73357 532.1
60.78609 460.6
60.83862 470.6
60.89114 493.3
60.94366 541.2
60.99618 530.9
61.04871 525.1
61.10123 503.7
61.15375 483.5
61.20627 461.9
61.25879 514.9
61.31131 522.1
61.36384 519.0
61.41636 494.6
61.46888 476.0
61.5214 486.8
61.57393 519.9
61.62645 520.0
61.67897 506.4
61.73149 451.0
61.78401 425.0
61.83653 459.3
61.88906 465.5
61.94158 502.0
61.9941 443.9
62.04662 485.7
62.09914 491.2
62.15166 451.6
62.20419 487.9
62.25671 462.7
62.30923 477.4
62.36176 439.1
62.41428 445.4
62.4668 480.5
62.51932 399.0
62.57184 483.7
62.62436 405.6
62.67689 470.4
62.72941 466.9
62.78193 445.3
62.83445 442.8
62.88697 408.7
62.9395 438.8
62.99202 380.6
63.04454 435.6
63.09706 423.8
63.14959 380.5
63.20211 358.9
63.25463 410.4
63.30715 388.9
63.35967 380.1
63.41219 405.2
63.46472 385.1
63.51724 412.4
63.56976 377.7
63.62228 358.7
63.6748 366.3
63.72733 374.9
63.77985 393.5
63.83237 400.4
63.88489 395.5
63.93742 357.3
63.98994 334.7
64.04246 392.7
64.09498 340.4
64.1475 343.0
64.20003 373.8
64.25255 429.0
64.30507 391.7
64.35759 338.6
64.41011 318.7
64.46263 379.8
64.51516 391.2
64.56768 337.1
64.6202 343.2
64.67272 370.1
64.72524 405.3
64.77776 369.0
64.83029 355.2
64.88281 389.2
64.93533 320.7
64.98785 511.6