File: Files_organized_for_plots/Water_wash_vs_others/XRD_005_CentroidWash_Water_bgr_removed.xy
5.00773 156.3
5.060252 276.9
5.112774 184.6
5.165296 204.7
5.217818 127.8
5.27034 78.7
5.322862 128.1
5.375384 114.0
5.427906 64.6
5.480428 163.3
5.53295 0.0
5.585472 34.8
5.637994 57.6
5.690516 0.0
5.743038 0.0
5.79556 0.0
5.848082 48.7
5.900604 30.2
5.953126 18.4
6.005648 0.0
6.05817 74.3
6.110692 94.1
6.163214 58.1
6.215736 0.0
6.268258 96.1
6.32078 0.0
6.373302 32.6
6.425824 0.0
6.478346 92.5
6.530868 0.0
6.58339 0.0
6.635912 37.1
6.688434 0.0
6.740956 23.9
6.793478 0.0
6.846 0.0
6.898522 0.0
6.951044 68.3
7.003566 50.1
7.056088 0.0
7.10861 63.7
7.161132 65.9
7.213654 0.0
7.266176 42.1
7.318698 138.5
7.37122 22.6
7.423742 85.7
7.476264 0.0
7.528786 85.9
7.581308 105.8
7.63383 141.1
7.686352 66.4
7.738874 222.1
7.791396 46.5
7.843918 110.4
7.89644 208.4
7.948962 129.1
8.001484 68.7
8.054006 153.9
8.106528 132.9
8.15905 176.9
8.211572 174.4
8.264094 182.8
8.316616 167.3
8.369138 206.1
8.42166 305.6
8.474182 314.4
8.526704 172.7
8.579226 239.2
8.631748 316.6
8.68427 277.0
8.736792 292.0
8.789314 285.5
8.841836 338.1
8.894358 380.6
8.94688 315.5
8.999402 287.9
9.051924 441.2
9.104446 440.1
9.156968 250.6
9.20949 327.3
9.262012 367.7
9.314534 395.6
9.367056 366.5
9.419578 304.0
9.4721 482.7
9.524622 458.8
9.577144 446.6
9.629666 505.3
9.682188 567.6
9.73471 427.2
9.787232 511.0
9.839754 396.5
9.892276 516.8
9.944798 358.7
9.99732 354.4
10.04984 398.2
10.10236 420.6
10.15489 535.4
10.20741 416.8
10.25993 419.0
10.31245 645.2
10.36497 537.1
10.4175 516.5
10.47002 565.3
10.52254 505.5
10.57506 610.6
10.62758 520.4
10.68011 500.0
10.73263 552.3
10.78515 676.7
10.83767 681.7
10.89019 614.2
10.94272 582.6
10.99524 569.3
11.04776 689.9
11.10028 687.3
11.1528 662.7
11.20533 683.3
11.25785 616.1
11.31037 517.6
11.36289 663.0
11.41541 739.2
11.46794 660.4
11.52046 586.6
11.57298 670.7
11.6255 700.7
11.67802 751.5
11.73055 781.8
11.78307 620.2
11.83559 570.6
11.88811 594.3
11.94063 390.9
11.99316 537.1
12.04568 526.1
12.0982 550.9
12.15072 498.8
12.20324 485.8
12.25577 466.0
12.30829 478.9
12.36081 447.6
12.41333 527.4
12.46585 494.6
12.51838 474.3
12.5709 550.1
12.62342 441.9
12.67594 383.4
12.72846 244.8
12.78099 354.1
12.83351 326.3
12.88603 412.2
12.93855 392.5
12.99107 432.6
13.0436 373.0
13.09612 316.5
13.14864 387.9
13.20116 313.1
13.25368 342.1
13.30621 221.9
13.35873 244.5
13.41125 280.3
13.46377 186.5
13.51629 295.2
13.56882 185.5
13.62134 326.3
13.67386 346.6
13.72638 207.0
13.7789 271.5
13.83143 262.7
13.88395 287.9
13.93647 162.4
13.98899 283.6
14.04151 219.5
14.09404 197.6
14.14656 211.2
14.19908 163.4
14.2516 260.5
14.30412 132.0
14.35665 157.6
14.40917 194.1
14.46169 216.1
14.51421 259.4
14.56673 118.4
14.61926 180.3
14.67178 201.1
14.7243 268.0
14.77682 246.8
14.82934 152.9
14.88187 202.5
14.93439 308.1
14.98691 185.7
15.03943 253.2
15.09195 188.5
15.14448 267.8
15.197 259.8
15.24952 210.3
15.30204 198.3
15.35456 222.0
15.40709 245.8
15.45961 224.3
15.51213 250.6
15.56465 286.0
15.61717 266.2
15.6697 225.9
15.72222 285.8
15.77474 235.3
15.82726 310.9
15.87978 266.2
15.93231 166.5
15.98483 244.9
16.03735 238.0
16.08987 197.5
16.14239 209.9
16.19492 307.9
16.24744 260.0
16.29996 287.5
16.35248 255.9
16.405 267.3
16.45753 220.8
16.51005 222.9
16.56257 232.9
16.61509 281.7
16.66761 323.3
16.72014 238.6
16.77266 278.1
16.82518 315.3
16.8777 335.2
16.93022 347.2
16.98275 329.4
17.03527 277.1
17.08779 358.1
17.14031 363.8
17.19283 398.8
17.24536 333.6
17.29788 365.0
17.3504 267.4
17.40292 437.6
17.45544 367.8
17.50797 400.0
17.56049 416.4
17.61301 394.1
17.66553 463.2
17.71805 418.2
17.77058 411.4
17.8231 420.1
17.87562 480.9
17.92814 533.4
17.98066 498.3
18.03319 547.3
18.08571 586.3
18.13823 433.7
18.19075 545.4
18.24327 587.9
18.2958 564.2
18.34832 467.8
18.40084 525.9
18.45336 528.6
18.50588 610.0
18.55841 576.0
18.61093 488.4
18.66345 605.2
18.71597 644.0
18.76849 514.2
18.82102 691.8
18.87354 586.4
18.92606 743.8
18.97858 622.7
19.0311 683.7
19.08363 716.8
19.13615 754.3
19.18867 667.6
19.24119 717.2
19.29371 783.0
19.34624 745.4
19.39876 795.2
19.45128 756.3
19.5038 683.8
19.55632 845.9
19.60885 794.0
19.66137 824.4
19.71389 861.0
19.76641 772.8
19.81893 753.9
19.87146 891.8
19.92398 891.5
19.9765 859.6
20.02902 900.1
20.08154 956.7
20.13407 946.7
20.18659 892.4
20.23911 1000.6
20.29163 982.4
20.34415 919.3
20.39668 1111.3
20.4492 976.5
20.50172 1107.8
20.55424 924.1
20.60676 1095.2
20.65929 1101.9
20.71181 994.6
20.76433 1092.3
20.81685 1108.0
20.86937 1150.2
20.9219 1147.4
20.97442 1111.1
21.02694 1165.5
21.07946 1165.3
21.13198 1149.6
21.18451 1251.5
21.23703 1152.8
21.28955 1155.5
21.34207 1127.9
21.39459 1166.9
21.44712 1224.6
21.49964 1263.4
21.55216 1277.6
21.60468 1208.2
21.6572 1303.6
21.70973 1325.4
21.76225 1327.5
21.81477 1282.1
21.86729 1356.9
21.91981 1388.1
21.97234 1366.2
22.02486 1441.2
22.07738 1354.5
22.1299 1322.0
22.18242 1426.0
22.23495 1417.9
22.28747 1395.1
22.33999 1463.9
22.39251 1367.1
22.44503 1467.0
22.49756 1449.0
22.55008 1538.9
22.6026 1427.1
22.65512 1438.5
22.70764 1438.9
22.76017 1438.4
22.81269 1413.7
22.86521 1428.7
22.91773 1427.0
22.97025 1405.5
23.02278 1479.1
23.0753 1460.5
23.12782 1450.0
23.18034 1407.6
23.23286 1457.7
23.28539 1373.5
23.33791 1489.7
23.39043 1277.3
23.44295 1334.7
23.49547 1449.3
23.548 1362.7
23.60052 1471.2
23.65304 1410.8
23.70556 1345.6
23.75808 1335.5
23.81061 1250.5
23.86313 1226.0
23.91565 1339.4
23.96817 1208.7
24.02069 1397.0
24.07322 1277.0
24.12574 1178.5
24.17826 1334.6
24.23078 1251.4
24.2833 1237.6
24.33583 1180.2
24.38835 1222.2
24.44087 1218.4
24.49339 1218.5
24.54591 1173.1
24.59844 1103.9
24.65096 1104.4
24.70348 1185.8
24.756 1098.5
24.80852 1088.4
24.86105 1070.4
24.91357 1064.6
24.96609 1043.5
25.01861 1091.0
25.07113 983.2
25.12366 1048.0
25.17618 983.8
25.2287 978.6
25.28122 998.1
25.33374 1052.7
25.38627 1006.8
25.43879 992.0
25.49131 979.3
25.54383 953.0
25.59635 1016.6
25.64888 969.5
25.7014 1020.1
25.75392 831.2
25.80644 985.7
25.85896 985.5
25.91149 950.7
25.96401 986.1
26.01653 881.4
26.06905 927.9
26.12157 970.4
26.1741 953.7
26.22662 926.1
26.27914 931.9
26.33166 948.4
26.38418 884.1
26.43671 980.7
26.48923 859.5
26.54175 914.6
26.59427 977.9
26.64679 957.4
26.69932 1001.0
26.75184 928.6
26.80436 902.3
26.85688 838.0
26.9094 848.1
26.96193 933.3
27.01445 830.9
27.06697 904.9
27.11949 1001.1
27.17201 838.1
27.22454 846.0
27.27706 953.9
27.32958 822.1
27.3821 958.3
27.43462 936.1
27.48715 892.6
27.53967 781.7
27.59219 937.2
27.64471 894.8
27.69723 928.7
27.74976 877.5
27.80228 837.5
27.8548 870.5
27.90732 807.2
27.95984 916.0
28.01237 838.1
28.06489 806.7
28.11741 954.7
28.16993 892.8
28.22245 949.0
28.27498 870.7
28.3275 837.3
28.38002 843.6
28.43254 770.6
28.48506 786.0
28.53759 925.5
28.59011 811.1
28.64263 805.1
28.69515 948.5
28.74767 749.7
28.8002 865.5
28.85272 830.2
28.90524 842.9
28.95776 854.2
29.01028 773.3
29.06281 798.1
29.11533 917.1
29.16785 804.2
29.22037 862.5
29.27289 891.5
29.32542 807.3
29.37794 843.6
29.43046 897.5
29.48298 840.8
29.5355 851.9
29.58803 691.6
29.64055 780.6
29.69307 800.6
29.74559 844.4
29.79811 836.4
29.85064 811.7
29.90316 745.1
29.95568 806.9
30.0082 780.6
30.06072 837.4
30.11325 797.6
30.16577 775.4
30.21829 815.1
30.27081 749.5
30.32333 781.4
30.37586 700.0
30.42838 878.2
30.4809 774.6
30.53342 666.9
30.58594 764.3
30.63847 760.1
30.69099 759.3
30.74351 734.2
30.79603 792.2
30.84855 781.0
30.90108 788.0
30.9536 756.2
31.00612 754.2
31.05864 748.5
31.11116 727.8
31.16369 727.3
31.21621 667.1
31.26873 704.6
31.32125 775.0
31.37377 662.1
31.4263 802.1
31.47882 742.8
31.53134 691.4
31.58386 694.0
31.63638 721.5
31.68891 786.8
31.74143 762.4
31.79395 732.6
31.84647 824.6
31.89899 713.0
31.95152 712.7
32.00404 688.8
32.05656 642.4
32.10908 701.7
32.16161 735.5
32.21413 666.4
32.26665 676.0
32.31917 789.0
32.37169 693.5
32.42421 669.0
32.47673 707.1
32.52926 702.1
32.58178 729.5
32.6343 678.8
32.68682 702.7
32.73935 724.4
32.79187 726.4
32.84439 711.2
32.89691 680.9
32.94943 716.3
33.00196 700.3
33.05448 682.1
33.107 734.0
33.15952 788.6
33.21204 665.4
33.26456 660.6
33.31709 772.3
33.36961 656.7
33.42213 641.2
33.47466 843.1
33.52718 690.8
33.5797 733.1
33.63222 720.1
33.68474 670.1
33.73726 804.4
33.78979 770.7
33.84231 746.8
33.89483 784.1
33.94735 863.0
33.99987 842.0
34.05239 856.1
34.10492 956.1
34.15744 881.2
34.20996 938.5
34.26249 1072.1
34.31501 958.8
34.36753 1138.4
34.42005 1212.3
34.47257 1131.9
34.52509 1137.1
34.57762 1202.2
34.63014 1202.8
34.68266 1224.0
34.73518 1225.7
34.7877 1222.2
34.84023 1262.2
34.89275 1303.3
34.94527 1225.4
34.99779 1211.4
35.05032 1228.5
35.10284 1202.8
35.15536 1164.4
35.20788 1122.0
35.2604 1125.7
35.31292 1109.3
35.36544 1072.2
35.41797 1112.2
35.47049 1053.3
35.52301 1089.2
35.57553 984.6
35.62806 986.4
35.68058 1015.7
35.7331 972.3
35.78562 925.8
35.83814 1034.6
35.89067 1062.5
35.94319 947.8
35.99571 851.8
36.04823 869.5
36.10075 987.4
36.15327 909.6
36.2058 862.9
36.25832 876.3
36.31084 909.6
36.36337 785.0
36.41589 894.1
36.46841 763.8
36.52093 820.0
36.57345 760.6
36.62597 851.4
36.6785 825.6
36.73102 737.8
36.78354 781.8
36.83606 805.0
36.88858 740.3
36.9411 693.9
36.99363 757.8
37.04615 797.8
37.09867 729.9
37.1512 778.5
37.20372 750.2
37.25624 735.1
37.30876 757.3
37.36128 706.6
37.4138 716.9
37.46633 787.3
37.51885 846.3
37.57137 687.7
37.62389 710.3
37.67641 731.4
37.72894 786.7
37.78146 796.4
37.83398 804.2
37.8865 709.0
37.93902 692.7
37.99155 810.1
38.04407 836.0
38.09659 719.4
38.14911 789.9
38.20163 774.1
38.25415 720.3
38.30668 823.5
38.3592 799.2
38.41172 774.6
38.46424 794.4
38.51677 840.8
38.56929 717.6
38.62181 702.9
38.67433 813.9
38.72685 812.0
38.77938 778.6
38.8319 845.5
38.88442 786.4
38.93694 698.9
38.98946 759.7
39.04198 789.9
39.09451 750.8
39.14703 784.9
39.19955 760.2
39.25208 781.5
39.3046 743.8
39.35712 714.1
39.40964 707.4
39.46216 757.5
39.51468 774.8
39.56721 701.1
39.61973 682.6
39.67225 750.7
39.72477 705.9
39.77729 700.6
39.82981 725.9
39.88234 689.6
39.93486 698.0
39.98738 752.7
40.03991 710.2
40.09243 684.5
40.14495 694.3
40.19747 616.8
40.24999 704.4
40.30251 701.6
40.35504 679.6
40.40756 634.3
40.46008 670.5
40.5126 663.6
40.56512 636.3
40.61765 701.6
40.67017 599.4
40.72269 548.7
40.77521 616.5
40.82773 695.0
40.88026 661.2
40.93278 545.5
40.9853 671.6
41.03782 623.0
41.09034 554.8
41.14286 613.3
41.19539 605.3
41.24791 599.5
41.30043 583.6
41.35295 625.6
41.40548 565.3
41.458 612.1
41.51052 577.8
41.56304 540.8
41.61556 606.7
41.66809 579.6
41.72061 579.7
41.77313 586.5
41.82565 574.4
41.87817 619.9
41.93069 567.2
41.98322 523.7
42.03574 503.4
42.08826 579.6
42.14079 563.8
42.19331 599.0
42.24583 557.5
42.29835 553.8
42.35087 576.2
42.40339 538.8
42.45592 569.1
42.50844 544.1
42.56096 553.9
42.61348 557.7
42.666 575.8
42.71852 558.5
42.77105 557.8
42.82357 561.1
42.87609 531.3
42.92862 564.9
42.98114 504.4
43.03366 548.6
43.08618 534.1
43.1387 539.1
43.19122 614.8
43.24375 518.0
43.29627 520.1
43.34879 554.3
43.40131 593.2
43.45383 536.2
43.50636 496.6
43.55888 579.7
43.6114 524.5
43.66392 489.3
43.71644 565.0
43.76897 551.8
43.82149 523.1
43.87401 623.5
43.92653 599.8
43.97905 551.2
44.03157 517.0
44.0841 529.2
44.13662 642.7
44.18914 639.3
44.24166 565.2
44.29419 513.9
44.34671 615.6
44.39923 633.4
44.45175 563.0
44.50427 604.9
44.5568 512.5
44.60932 583.6
44.66184 691.3
44.71436 615.9
44.76688 594.0
44.8194 638.6
44.87193 605.2
44.92445 590.3
44.97697 646.2
45.0295 604.2
45.08202 665.4
45.13454 682.0
45.18706 620.8
45.23958 593.4
45.2921 623.8
45.34463 691.1
45.39715 669.0
45.44967 611.4
45.50219 619.9
45.55471 662.9
45.60723 631.9
45.65976 633.5
45.71228 594.2
45.7648 633.7
45.81733 553.9
45.86985 684.6
45.92237 625.4
45.97489 610.4
46.02741 616.0
46.07993 596.8
46.13246 682.0
46.18498 631.5
46.2375 652.0
46.29002 652.8
46.34254 649.8
46.39507 657.3
46.44759 623.1
46.50011 627.6
46.55263 618.6
46.60515 631.0
46.65768 624.3
46.7102 635.5
46.76272 624.5
46.81524 614.6
46.86776 613.4
46.92028 627.3
46.97281 629.8
47.02533 610.9
47.07785 612.1
47.13037 658.1
47.1829 656.4
47.23542 666.1
47.28794 577.6
47.34046 628.5
47.39298 663.7
47.44551 619.1
47.49803 633.1
47.55055 553.9
47.60307 596.2
47.65559 538.3
47.70811 539.7
47.76064 608.7
47.81316 629.2
47.86568 501.0
47.91821 621.4
47.97073 577.4
48.02325 624.2
48.07577 559.8
48.12829 445.9
48.18081 559.4
48.23334 577.5
48.28586 529.5
48.33838 613.6
48.3909 564.5
48.44342 517.4
48.49594 548.1
48.54847 558.4
48.60099 521.8
48.65351 566.5
48.70604 549.4
48.75856 519.7
48.81108 584.0
48.8636 563.1
48.91612 507.3
48.96864 522.7
49.02117 549.9
49.07369 511.8
49.12621 501.0
49.17873 502.4
49.23125 476.1
49.28378 479.1
49.3363 492.7
49.38882 523.0
49.44134 439.6
49.49386 527.0
49.54639 486.2
49.59891 533.0
49.65143 460.8
49.70395 436.9
49.75647 436.3
49.80899 518.4
49.86152 493.6
49.91404 415.1
49.96656 467.4
50.01908 474.6
50.07161 466.8
50.12413 466.8
50.17665 434.4
50.22917 442.8
50.28169 468.2
50.33422 424.5
50.38674 438.4
50.43926 459.9
50.49178 445.2
50.5443 482.3
50.59682 491.3
50.64935 481.1
50.70187 460.9
50.75439 437.7
50.80692 468.6
50.85944 409.7
50.91196 454.3
50.96448 384.7
51.017 445.6
51.06952 448.7
51.12205 519.0
51.17457 472.7
51.22709 395.9
51.27961 402.5
51.33213 429.8
51.38465 480.5
51.43718 466.9
51.4897 424.6
51.54222 441.2
51.59475 429.7
51.64727 440.4
51.69979 445.1
51.75231 395.8
51.80483 438.9
51.85735 425.2
51.90988 405.0
51.9624 417.1
52.01492 441.4
52.06744 408.8
52.11996 407.1
52.17249 434.0
52.22501 438.7
52.27753 440.8
52.33005 450.1
52.38257 401.4
52.4351 407.3
52.48762 355.4
52.54014 366.3
52.59266 406.3
52.64518 416.1
52.6977 417.3
52.75023 405.3
52.80275 406.6
52.85527 423.8
52.90779 395.5
52.96032 400.2
53.01284 457.6
53.06536 416.2
53.11788 387.2
53.1704 351.1
53.22293 439.6
53.27545 435.1
53.32797 366.3
53.38049 373.5
53.43301 404.0
53.48553 492.5
53.53806 380.1
53.59058 407.5
53.6431 363.5
53.69563 425.3
53.74815 373.7
53.80067 369.4
53.85319 339.4
53.90571 442.2
53.95823 362.2
54.01076 361.4
54.06328 363.8
54.1158 360.4
54.16832 417.4
54.22084 390.6
54.27337 364.8
54.32589 353.9
54.37841 371.8
54.43093 444.9
54.48346 418.7
54.53598 350.3
54.5885 355.0
54.64102 342.1
54.69354 358.8
54.74606 358.9
54.79859 375.8
54.85111 367.5
54.90363 373.6
54.95615 367.9
55.00867 381.6
55.0612 387.8
55.11372 333.8
55.16624 341.4
55.21876 333.2
55.27128 365.8
55.32381 389.7
55.37633 350.7
55.42885 359.0
55.48137 343.7
55.53389 371.1
55.58641 373.8
55.63894 360.2
55.69146 354.8
55.74398 306.0
55.7965 334.1
55.84903 371.5
55.90155 392.8
55.95407 366.1
56.00659 354.6
56.05911 336.8
56.11164 323.1
56.16416 364.0
56.21668 340.5
56.2692 350.1
56.32172 342.5
56.37424 394.5
56.42677 339.3
56.47929 349.3
56.53181 296.0
56.58434 358.5
56.63686 324.1
56.68938 375.1
56.7419 370.9
56.79442 331.1
56.84694 314.5
56.89947 337.7
56.95199 339.6
57.00451 382.6
57.05703 320.6
57.10955 331.2
57.16208 260.9
57.2146 360.8
57.26712 342.5
57.31964 378.6
57.37217 337.8
57.42469 285.0
57.47721 309.9
57.52973 322.9
57.58225 378.3
57.63477 338.2
57.6873 311.1
57.73982 266.6
57.79234 270.7
57.84486 302.8
57.89738 368.8
57.94991 337.3
58.00243 323.7
58.05495 278.1
58.10747 332.9
58.15999 331.4
58.21252 332.9
58.26504 327.7
58.31756 333.6
58.37008 327.0
58.4226 311.5
58.47512 283.0
58.52765 321.2
58.58017 341.2
58.63269 333.8
58.68521 330.2
58.73774 288.0
58.79026 315.1
58.84278 332.1
58.8953 355.5
58.94782 306.9
59.00035 326.1
59.05287 297.2
59.10539 294.5
59.15791 312.2
59.21043 351.3
59.26295 373.7
59.31548 331.6
59.368 313.6
59.42052 312.0
59.47305 316.9
59.52557 278.6
59.57809 337.7
59.63061 337.6
59.68313 366.5
59.73565 301.7
59.78818 353.4
59.8407 322.4
59.89322 355.0
59.94574 349.2
59.99826 385.7
60.05079 379.0
60.10331 395.4
60.15583 394.1
60.20835 428.3
60.26088 397.5
60.3134 474.0
60.36592 438.0
60.41844 525.9
60.47096 535.2
60.52348 546.4
60.576 516.9
60.62853 575.3
60.68105 620.8
60.73357 585.3
60.78609 560.0
60.83862 553.8
60.89114 606.2
60.94366 623.3
60.99618 702.5
61.0487 619.1
61.10123 625.3
61.15375 675.9
61.20627 623.0
61.25879 602.8
61.31131 596.6
61.36383 599.3
61.41636 586.1
61.46888 599.0
61.5214 589.3
61.57393 577.0
61.62645 566.1
61.67897 543.6
61.73149 536.4
61.78401 549.2
61.83653 548.4
61.88906 614.1
61.94158 573.2
61.9941 607.4
62.04662 615.4
62.09914 521.6
62.15166 536.9
62.20419 517.6
62.25671 492.8
62.30923 513.0
62.36176 530.9
62.41428 456.0
62.4668 482.5
62.51932 467.2
62.57184 375.1
62.62436 480.0
62.67689 418.4
62.72941 385.3
62.78193 485.9
62.83445 412.8
62.88697 400.2
62.9395 366.1
62.99202 388.5
63.04454 356.7
63.09706 393.1
63.14959 343.8
63.20211 333.6
63.25463 341.8
63.30715 364.6
63.35967 325.1
63.41219 287.0
63.46471 379.1
63.51724 319.8
63.56976 327.2
63.62228 300.7
63.6748 302.6
63.72733 324.4
63.77985 281.1
63.83237 266.5
63.88489 312.1
63.93741 238.5
63.98994 254.5
64.04246 256.4
64.09498 245.4
64.1475 237.5
64.20003 310.7
64.25255 321.6
64.30507 277.5
64.35759 261.4
64.41011 266.8
64.46263 263.7
64.51516 241.7
64.56768 290.0
64.6202 292.0
64.67272 271.6
64.72524 275.8
64.77776 305.8
64.83028 263.9
64.88281 346.2
64.93533 325.7
64.98785 410.4