File: Files_organized_for_plots/Phill-Misty/A_XRD_005_CentroidWash_Water.xy
5.00773 4779.0
5.06025 4754.0
5.11277 4627.0
5.16529 4579.0
5.21781 4454.0
5.27034 4349.0
5.32286 4402.0
5.37538 4362.0
5.4279 4282.0
5.48042 4382.0
5.53294 4123.0
5.58546 4165.0
5.63798 4155.0
5.6905 4032.0
5.74303 3933.0
5.79555 4026.0
5.84807 4051.0
5.90059 4004.0
5.95311 3971.0
6.00563 3923.0
6.05815 3959.0
6.11067 3967.0
6.1632 3895.0
6.21572 3739.0
6.26824 3920.0
6.32076 3790.0
6.37328 3817.0
6.4258 3776.0
6.47832 3873.0
6.53084 3675.0
6.58336 3654.0
6.63589 3780.0
6.68841 3710.0
6.74093 3683.0
6.79345 3645.0
6.84597 3615.0
6.89849 3631.0
6.95101 3685.0
7.00353 3641.0
7.05605 3540.0
7.10858 3643.0
7.1611 3624.0
7.21362 3540.0
7.26614 3599.0
7.31866 3656.0
7.37118 3540.0
7.4237 3635.0
7.47622 3435.0
7.52874 3581.0
7.58127 3557.0
7.63379 3610.0
7.68631 3534.0
7.73883 3657.0
7.79135 3444.0
7.84387 3508.0
7.89639 3656.0
7.94891 3486.0
8.00143 3474.0
8.05396 3558.0
8.10648 3475.0
8.159 3537.0
8.21152 3502.0
8.26404 3577.0
8.31656 3518.0
8.36908 3541.0
8.4216 3608.0
8.47412 3646.0
8.52665 3500.0
8.57917 3565.0
8.63169 3653.0
8.68421 3554.0
8.73673 3595.0
8.78925 3589.0
8.84177 3654.0
8.89429 3684.0
8.94682 3617.0
8.99934 3534.0
9.05186 3753.0
9.10438 3655.0
9.1569 3472.0
9.20942 3577.0
9.26194 3619.0
9.31446 3583.0
9.36698 3619.0
9.41951 3584.0
9.47203 3706.0
9.52455 3674.0
9.57707 3628.0
9.62959 3674.0
9.68211 3694.0
9.73463 3576.0
9.78715 3658.0
9.83967 3576.0
9.8922 3674.0
9.94472 3501.0
9.99724 3508.0
10.0498 3609.0
10.1023 3571.0
10.1548 3696.0
10.2073 3544.0
10.2598 3540.0
10.3124 3728.0
10.3649 3581.0
10.4174 3556.0
10.4699 3614.0
10.5224 3567.0
10.575 3689.0
10.6275 3648.0
10.68 3579.0
10.7325 3650.0
10.7851 3677.0
10.8376 3697.0
10.8901 3593.0
10.9426 3633.0
10.9951 3599.0
11.0477 3685.0
11.1002 3575.0
11.1527 3628.0
11.2052 3609.0
11.2577 3564.0
11.3103 3483.0
11.3628 3602.0
11.4153 3614.0
11.4678 3507.0
11.5204 3462.0
11.5729 3530.0
11.6254 3547.0
11.6779 3572.0
11.7304 3565.0
11.783 3383.0
11.8355 3362.0
11.888 3389.0
11.9405 3161.0
11.993 3271.0
12.0456 3235.0
12.0981 3262.0
12.1506 3192.0
12.2031 3112.0
12.2556 3150.0
12.3082 3080.0
12.3607 3058.0
12.4132 3111.0
12.4657 2999.0
12.5183 3031.0
12.5708 3021.0
12.6233 2922.0
12.6758 2874.0
12.7283 2758.0
12.7809 2823.0
12.8334 2775.0
12.8859 2812.0
12.9384 2796.0
12.9909 2803.0
13.0435 2742.0
13.096 2659.0
13.1485 2737.0
13.201 2619.0
13.2535 2674.0
13.3061 2518.0
13.3586 2527.0
13.4111 2529.0
13.4636 2442.0
13.5162 2514.0
13.5687 2415.0
13.6212 2499.0
13.6737 2546.0
13.7262 2399.0
13.7788 2427.0
13.8313 2395.0
13.8838 2428.0
13.9363 2301.0
13.9888 2388.0
14.0414 2319.0
14.0939 2292.0
14.1464 2277.0
14.1989 2258.0
14.2514 2296.0
14.304 2184.0
14.3565 2156.0
14.409 2196.0
14.4615 2228.0
14.5141 2272.0
14.5666 2100.0
14.6191 2141.0
14.6716 2154.0
14.7241 2219.0
14.7767 2196.0
14.8292 2109.0
14.8817 2142.0
14.9342 2189.0
14.9867 2130.0
15.0393 2128.0
15.0918 2099.0
15.1443 2158.0
15.1968 2158.0
15.2494 2094.0
15.3019 2056.0
15.3544 2068.0
15.4069 2076.0
15.4594 2075.0
15.512 2105.0
15.5645 2103.0
15.617 2091.0
15.6695 2035.0
15.722 2081.0
15.7746 2055.0
15.8271 2082.0
15.8796 2056.0
15.9321 1956.0
15.9846 2001.0
16.0372 1990.0
16.0897 1966.0
16.1422 1951.0
16.1947 2016.0
16.2473 2027.0
16.2998 2018.0
16.3523 1981.0
16.4048 1979.0
16.4573 1945.0
16.5099 1924.0
16.5624 1928.0
16.6149 1955.0
16.6674 2013.0
16.7199 1926.0
16.7725 1957.0
16.825 1974.0
16.8775 2015.0
16.93 2024.0
16.9825 1989.0
17.0351 1948.0
17.0876 1994.0
17.1401 2015.0
17.1926 2064.0
17.2452 1973.0
17.2977 2000.0
17.3502 1900.0
17.4027 2034.0
17.4552 2018.0
17.5078 2016.0
17.5603 2041.0
17.6128 2018.0
17.6653 2075.0
17.7178 2042.0
17.7704 2019.0
17.8229 2027.0
17.8754 2084.0
17.9279 2138.0
17.9804 2122.0
18.033 2140.0
18.0855 2209.0
18.138 2055.0
18.1905 2115.0
18.2431 2186.0
18.2956 2174.0
18.3481 2076.0
18.4006 2083.0
18.4531 2099.0
18.5057 2170.0
18.5582 2160.0
18.6107 2073.0
18.6632 2141.0
18.7157 2219.0
18.7683 2103.0
18.8208 2219.0
18.8733 2180.0
18.9258 2290.0
18.9784 2226.0
19.0309 2239.0
19.0834 2291.0
19.1359 2341.0
19.1884 2258.0
19.241 2274.0
19.2935 2345.0
19.346 2335.0
19.3985 2374.0
19.451 2342.0
19.5036 2251.0
19.5561 2373.0
19.6086 2390.0
19.6611 2390.0
19.7136 2442.0
19.7662 2351.0
19.8187 2302.0
19.8712 2420.0
19.9237 2473.0
19.9763 2437.0
20.0288 2456.0
20.0813 2527.0
20.1338 2537.0
20.1863 2477.0
20.2389 2551.0
20.2914 2583.0
20.3439 2500.0
20.3964 2660.0
20.4489 2610.0
20.5015 2672.0
20.554 2547.0
20.6065 2624.0
20.659 2710.0
20.7115 2599.0
20.7641 2640.0
20.8166 2698.0
20.8691 2743.0
20.9216 2756.0
20.9742 2713.0
21.0267 2745.0
21.0792 2765.0
21.1317 2746.0
21.1842 2834.0
21.2368 2783.0
21.2893 2729.0
21.3418 2702.0
21.3943 2719.0
21.4468 2792.0
21.4994 2853.0
21.5519 2882.0
21.6044 2813.0
21.6569 2878.0
21.7094 2931.0
21.762 2948.0
21.8145 2894.0
21.867 2943.0
21.9195 3003.0
21.9721 2991.0
22.0246 3059.0
22.0771 2992.0
22.1296 2927.0
22.1821 2999.0
22.2347 3042.0
22.2872 3011.0
22.3397 3059.0
22.3922 2991.0
22.4447 3045.0
22.4973 3065.0
22.5498 3137.0
22.6023 2942.0
22.6548 2976.0
22.7074 3129.0
22.7599 2956.0
22.8124 2975.0
22.8649 2960.0
22.9174 3007.0
22.97 2987.0
23.0225 3032.0
23.075 3040.0
23.1275 3014.0
23.18 2967.0
23.2326 2988.0
23.2851 2928.0
23.3376 2998.0
23.3901 2833.0
23.4426 2809.0
23.4952 2917.0
23.5477 2902.0
23.6002 2928.0
23.6527 2921.0
23.7053 2837.0
23.7578 2787.0
23.8103 2708.0
23.8628 2645.0
23.9153 2751.0
23.9679 2650.0
24.0204 2774.0
24.0729 2712.0
24.1254 2579.0
24.1779 2679.0
24.2305 2660.0
24.283 2610.0
24.3355 2550.0
24.388 2570.0
24.4405 2570.0
24.4931 2550.0
24.5456 2505.0
24.5981 2412.0
24.6506 2388.0
24.7032 2477.0
24.7557 2395.0
24.8082 2353.0
24.8607 2335.0
24.9132 2321.0
24.9658 2285.0
25.0183 2326.0
25.0708 2230.0
25.1233 2248.0
25.1758 2186.0
25.2284 2168.0
25.2809 2189.0
25.3334 2232.0
25.3859 2219.0
25.4385 2149.0
25.491 2154.0
25.5435 2114.0
25.596 2173.0
25.6485 2124.0
25.7011 2158.0
25.7536 1994.0
25.8061 2079.0
25.8586 2109.0
25.9111 2070.0
25.9637 2108.0
26.0162 2021.0
26.0687 2007.0
26.1212 2095.0
26.1737 2058.0
26.2263 2041.0
26.2788 2025.0
26.3313 2032.0
26.3838 1971.0
26.4364 2028.0
26.4889 1966.0
26.5414 1974.0
26.5939 2032.0
26.6464 2045.0
26.699 2069.0
26.7515 1965.0
26.804 1942.0
26.8565 1888.0
26.909 1912.0
26.9616 1946.0
27.0141 1889.0
27.0666 1935.0
27.1191 2033.0
27.1716 1886.0
27.2242 1857.0
27.2767 1941.0
27.3292 1851.0
27.3817 1956.0
27.4343 1957.0
27.4868 1903.0
27.5393 1816.0
27.5918 1908.0
27.6443 1910.0
27.6969 1931.0
27.7494 1889.0
27.8019 1838.0
27.8544 1866.0
27.9069 1765.0
27.9595 1878.0
28.012 1813.0
28.0645 1776.0
28.117 1905.0
28.1695 1869.0
28.2221 1926.0
28.2746 1826.0
28.3271 1784.0
28.3796 1785.0
28.4322 1735.0
28.4847 1756.0
28.5372 1840.0
28.5897 1788.0
28.6422 1761.0
28.6948 1856.0
28.7473 1710.0
28.7998 1807.0
28.8523 1731.0
28.9048 1756.0
28.9574 1765.0
29.0099 1709.0
29.0624 1750.0
29.1149 1816.0
29.1675 1713.0
29.22 1755.0
29.2725 1783.0
29.325 1710.0
29.3775 1739.0
29.4301 1787.0
29.4826 1735.0
29.5351 1709.0
29.5876 1638.0
29.6401 1669.0
29.6927 1681.0
29.7452 1735.0
29.7977 1681.0
29.8502 1689.0
29.9027 1625.0
29.9553 1654.0
30.0078 1647.0
30.0603 1703.0
30.1128 1643.0
30.1654 1655.0
30.2179 1626.0
30.2704 1594.0
30.3229 1641.0
30.3754 1565.0
30.428 1697.0
30.4805 1612.0
30.533 1526.0
30.5855 1569.0
30.638 1610.0
30.6906 1598.0
30.7431 1557.0
30.7956 1589.0
30.8481 1580.0
30.9006 1616.0
30.9532 1556.0
31.0057 1557.0
31.0582 1561.0
31.1107 1554.0
31.1633 1527.0
31.2158 1477.0
31.2683 1481.0
31.3208 1590.0
31.3733 1503.0
31.4259 1563.0
31.4784 1512.0
31.5309 1499.0
31.5834 1471.0
31.6359 1495.0
31.6885 1570.0
31.741 1530.0
31.7935 1496.0
31.846 1557.0
31.8985 1499.0
31.9511 1459.0
32.0036 1418.0
32.0561 1431.0
32.1086 1488.0
32.1612 1476.0
32.2137 1434.0
32.2662 1438.0
32.3187 1532.0
32.3712 1457.0
32.4238 1429.0
32.4763 1442.0
32.5288 1427.0
32.5813 1468.0
32.6338 1400.0
32.6864 1439.0
32.7389 1458.0
32.7914 1468.0
32.8439 1420.0
32.8965 1389.0
32.949 1435.0
33.0015 1426.0
33.054 1414.0
33.1065 1427.0
33.1591 1492.0
33.2116 1402.0
33.2641 1398.0
33.3166 1446.0
33.3691 1367.0
33.4217 1389.0
33.4742 1544.0
33.5267 1399.0
33.5792 1474.0
33.6317 1415.0
33.6843 1407.0
33.7368 1512.0
33.7893 1493.0
33.8418 1500.0
33.8944 1527.0
33.9469 1602.0
33.9994 1594.0
34.0519 1601.0
34.1044 1707.0
34.157 1673.0
34.2095 1770.0
34.262 1872.0
34.3145 1807.0
34.367 1992.0
34.4196 2048.0
34.4721 2024.0
34.5246 2024.0
34.5771 2097.0
34.6296 2111.0
34.6822 2158.0
34.7347 2155.0
34.7872 2143.0
34.8397 2204.0
34.8923 2235.0
34.9448 2173.0
34.9973 2135.0
35.0498 2076.0
35.1023 2205.0
35.1549 2032.0
35.2074 2063.0
35.2599 2059.0
35.3124 1973.0
35.3649 1956.0
35.4175 1965.0
35.47 1900.0
35.5225 1934.0
35.575 1829.0
35.6275 1841.0
35.6801 1831.0
35.7326 1789.0
35.7851 1725.0
35.8376 1826.0
35.8902 1833.0
35.9427 1739.0
35.9952 1640.0
36.0477 1662.0
36.1002 1736.0
36.1528 1624.0
36.2053 1610.0
36.2578 1614.0
36.3103 1641.0
36.3628 1507.0
36.4154 1613.0
36.4679 1461.0
36.5204 1543.0
36.5729 1444.0
36.6255 1537.0
36.678 1490.0
36.7305 1462.0
36.783 1465.0
36.8355 1449.0
36.8881 1416.0
36.9406 1362.0
36.9931 1409.0
37.0456 1449.0
37.0981 1390.0
37.1507 1446.0
37.2032 1401.0
37.2557 1396.0
37.3082 1407.0
37.3607 1353.0
37.4133 1373.0
37.4658 1417.0
37.5183 1471.0
37.5708 1334.0
37.6234 1394.0
37.6759 1358.0
37.7284 1407.0
37.7809 1424.0
37.8334 1469.0
37.886 1370.0
37.9385 1351.0
37.991 1430.0
38.0435 1441.0
38.096 1389.0
38.1486 1464.0
38.2011 1396.0
38.2536 1372.0
38.3061 1474.0
38.3586 1418.0
38.4112 1430.0
38.4637 1446.0
38.5162 1479.0
38.5687 1363.0
38.6213 1375.0
38.6738 1434.0
38.7263 1414.0
38.7788 1426.0
38.8313 1502.0
38.8839 1425.0
38.9364 1356.0
38.9889 1397.0
39.0414 1390.0
39.0939 1375.0
39.1465 1425.0
39.199 1377.0
39.2515 1413.0
39.304 1370.0
39.3565 1353.0
39.4091 1319.0
39.4616 1355.0
39.5141 1369.0
39.5666 1319.0
39.6192 1307.0
39.6717 1341.0
39.7242 1286.0
39.7767 1311.0
39.8292 1317.0
39.8818 1275.0
39.9343 1295.0
39.9868 1334.0
40.0393 1296.0
40.0918 1294.0
40.1444 1281.0
40.1969 1191.0
40.2494 1284.0
40.3019 1243.0
40.3545 1263.0
40.407 1216.0
40.4595 1241.0
40.512 1211.0
40.5645 1201.0
40.6171 1262.0
40.6696 1146.0
40.7221 1127.0
40.7746 1145.0
40.8271 1199.0
40.8797 1196.0
40.9322 1117.0
40.9847 1228.0
41.0372 1124.0
41.0897 1114.0
41.1423 1149.0
41.1948 1108.0
41.2473 1130.0
41.2998 1113.0
41.3524 1149.0
41.4049 1077.0
41.4574 1143.0
41.5099 1084.0
41.5624 1069.0
41.615 1118.0
41.6675 1072.0
41.72 1103.0
41.7725 1096.0
41.825 1084.0
41.8776 1131.0
41.9301 1073.0
41.9826 1047.0
42.0351 1007.0
42.0876 1064.0
42.1402 1037.0
42.1927 1104.0
42.2452 1051.0
42.2977 1068.0
42.3503 1070.0
42.4028 1025.0
42.4553 1065.0
42.5078 1038.0
42.5603 1050.0
42.6129 1039.0
42.6654 1063.0
42.7179 1050.0
42.7704 1061.0
42.8229 1055.0
42.8755 1014.0
42.928 1052.0
42.9805 985.0
43.033 1045.0
43.0856 1003.0
43.1381 1023.0
43.1906 1091.0
43.2431 1006.0
43.2956 1021.0
43.3482 1030.0
43.4007 1072.0
43.4532 1026.0
43.5057 989.0
43.5582 1055.0
43.6108 1007.0
43.6633 988.0
43.7158 1036.0
43.7683 1022.0
43.8208 1016.0
43.8734 1096.0
43.9259 1072.0
43.9784 1065.0
44.0309 1025.0
44.0835 1010.0
44.136 1113.0
44.1885 1115.0
44.241 1066.0
44.2935 1027.0
44.3461 1098.0
44.3986 1094.0
44.4511 1068.0
44.5036 1118.0
44.5561 1016.0
44.6087 1086.0
44.6612 1153.0
44.7137 1117.0
44.7662 1114.0
44.8187 1124.0
44.8713 1111.0
44.9238 1093.0
44.9763 1146.0
45.0288 1118.0
45.0814 1174.0
45.1339 1178.0
45.1864 1143.0
45.2389 1114.0
45.2914 1123.0
45.344 1178.0
45.3965 1180.0
45.449 1132.0
45.5015 1150.0
45.554 1169.0
45.6066 1128.0
45.6591 1164.0
45.7116 1126.0
45.7641 1160.0
45.8166 1064.0
45.8692 1187.0
45.9217 1124.0
45.9742 1144.0
46.0267 1123.0
46.0793 1121.0
46.1318 1191.0
46.1843 1123.0
46.2368 1165.0
46.2893 1159.0
46.3419 1166.0
46.3944 1157.0
46.4469 1123.0
46.4994 1156.0
46.5519 1132.0
46.6045 1133.0
46.657 1162.0
46.7095 1106.0
46.762 1151.0
46.8146 1102.0
46.8671 1086.0
46.9196 1131.0
46.9721 1125.0
47.0246 1121.0
47.0772 1135.0
47.1297 1162.0
47.1822 1141.0
47.2347 1139.0
47.2872 1080.0
47.3398 1126.0
47.3923 1129.0
47.4448 1106.0
47.4973 1107.0
47.5498 1062.0
47.6024 1063.0
47.6549 1009.0
47.7074 1017.0
47.7599 1060.0
47.8125 1115.0
47.865 986.0
47.9175 1103.0
47.97 1049.0
48.0225 1086.0
48.0751 1011.0
48.1276 960.0
48.1801 1047.0
48.2326 1036.0
48.2851 984.0
48.3377 1070.0
48.3902 1032.0
48.4427 1019.0
48.4952 1041.0
48.5477 1006.0
48.6003 1000.0
48.6528 996.0
48.7053 1034.0
48.7578 954.0
48.8104 1028.0
48.8629 1015.0
48.9154 955.0
48.9679 968.0
49.0204 969.0
49.073 941.0
49.1255 945.0
49.178 914.0
49.2305 897.0
49.283 939.0
49.3356 938.0
49.3881 961.0
49.4406 894.0
49.4931 961.0
49.5456 894.0
49.5982 951.0
49.6507 922.0
49.7032 884.0
49.7557 842.0
49.8083 962.0
49.8608 925.0
49.9133 851.0
49.9658 890.0
50.0183 891.0
50.0709 863.0
50.1234 897.0
50.1759 867.0
50.2284 855.0
50.2809 863.0
50.3335 840.0
50.386 879.0
50.4385 882.0
50.491 845.0
50.5436 890.0
50.5961 893.0
50.6486 893.0
50.7011 856.0
50.7536 846.0
50.8062 866.0
50.8587 822.0
50.9112 850.0
50.9637 783.0
51.0162 857.0
51.0688 849.0
51.1213 905.0
51.1738 865.0
51.2263 813.0
51.2788 786.0
51.3314 823.0
51.3839 841.0
51.4364 821.0
51.4889 797.0
51.5415 854.0
51.594 808.0
51.6465 836.0
51.699 810.0
51.7515 813.0
51.8041 814.0
51.8566 800.0
51.9091 779.0
51.9616 812.0
52.0141 814.0
52.0667 765.0
52.1192 796.0
52.1717 809.0
52.2242 795.0
52.2767 808.0
52.3293 820.0
52.3818 778.0
52.4343 768.0
52.4868 745.0
52.5394 736.0
52.5919 779.0
52.6444 797.0
52.6969 781.0
52.7494 786.0
52.802 784.0
52.8545 795.0
52.907 754.0
52.9595 774.0
53.012 830.0
53.0646 774.0
53.1171 749.0
53.1696 736.0
53.2221 792.0
53.2746 800.0
53.3272 716.0
53.3797 755.0
53.4322 771.0
53.4847 850.0
53.5373 735.0
53.5898 777.0
53.6423 748.0
53.6948 777.0
53.7473 718.0
53.7999 726.0
53.8524 709.0
53.9049 802.0
53.9574 708.0
54.0099 718.0
54.0625 734.0
54.115 711.0
54.1675 753.0
54.22 745.0
54.2726 710.0
54.3251 723.0
54.3776 720.0
54.4301 788.0
54.4826 760.0
54.5352 709.0
54.5877 727.0
54.6402 717.0
54.6927 702.0
54.7452 701.0
54.7978 712.0
54.8503 716.0
54.9028 718.0
54.9553 721.0
55.0078 729.0
55.0604 742.0
55.1129 683.0
55.1654 695.0
55.2179 689.0
55.2705 704.0
55.323 731.0
55.3755 691.0
55.428 712.0
55.4805 706.0
55.5331 721.0
55.5856 722.0
55.6381 705.0
55.6906 705.0
55.7431 663.0
55.7957 692.0
55.8482 723.0
55.9007 730.0
55.9532 703.0
56.0057 715.0
56.0583 703.0
56.1108 687.0
56.1633 719.0
56.2158 694.0
56.2684 689.0
56.3209 701.0
56.3734 745.0
56.4259 698.0
56.4784 705.0
56.531 670.0
56.5835 712.0
56.636 679.0
56.6885 712.0
56.741 731.0
56.7936 679.0
56.8461 686.0
56.8986 707.0
56.9511 693.0
57.0036 732.0
57.0562 681.0
57.1087 695.0
57.1612 643.0
57.2137 718.0
57.2663 703.0
57.3188 707.0
57.3713 712.0
57.4238 654.0
57.4763 698.0
57.5289 694.0
57.5814 724.0
57.6339 697.0
57.6864 677.0
57.7389 661.0
57.7915 647.0
57.844 667.0
57.8965 712.0
57.949 684.0
58.0016 688.0
58.0541 676.0
58.1066 717.0
58.1591 709.0
58.2116 690.0
58.2642 713.0
58.3167 720.0
58.3692 715.0
58.4217 699.0
58.4742 673.0
58.5268 713.0
58.5793 723.0
58.6318 705.0
58.6843 720.0
58.7368 691.0
58.7894 713.0
58.8419 731.0
58.8944 737.0
58.9469 698.0
58.9995 729.0
59.052 712.0
59.1045 694.0
59.157 717.0
59.2095 744.0
59.2621 766.0
59.3146 730.0
59.3671 736.0
59.4196 741.0
59.4721 736.0
59.5247 684.0
59.5772 742.0
59.6297 751.0
59.6822 766.0
59.7347 726.0
59.7873 784.0
59.8398 758.0
59.8923 771.0
59.9448 782.0
59.9974 812.0
60.0499 816.0
60.1024 836.0
60.1549 855.0
60.2074 886.0
60.26 862.0
60.3125 928.0
60.365 917.0
60.4175 998.0
60.47 1040.0
60.5226 1037.0
60.5751 1043.0
60.6276 1114.0
60.6801 1160.0
60.7326 1123.0
60.7852 1104.0
60.8377 1144.0
60.8902 1168.0
60.9427 1193.0
60.9953 1265.0
61.0478 1203.0
61.1003 1227.0
61.1528 1289.0
61.2053 1177.0
61.2579 1204.0
61.3104 1213.0
61.3629 1145.0
61.4154 1226.0
61.4679 1155.0
61.5205 1161.0
61.573 1162.0
61.6255 1139.0
61.678 1127.0
61.7306 1107.0
61.7831 1114.0
61.8356 1109.0
61.8881 1169.0
61.9406 1125.0
61.9932 1174.0
62.0457 1184.0
62.0982 1091.0
62.1507 1095.0
62.2032 1093.0
62.2558 1033.0
62.3083 1063.0
62.3608 1057.0
62.4133 988.0
62.4658 1016.0
62.5184 990.0
62.5709 894.0
62.6234 989.0
62.6759 920.0
62.7285 872.0
62.781 986.0
62.8335 880.0
62.886 875.0
62.9385 853.0
62.9911 861.0
63.0436 829.0
63.0961 856.0
63.1486 796.0
63.2011 786.0
63.2537 793.0
63.3062 813.0
63.3587 756.0
63.4112 723.0
63.4637 803.0
63.5163 745.0
63.5688 742.0
63.6213 709.0
63.6738 738.0
63.7264 726.0
63.7789 705.0
63.8314 672.0
63.8839 705.0
63.9364 651.0
63.989 640.0
64.0415 637.0
64.094 643.0
64.1465 626.0
64.199 717.0
64.2516 700.0
64.3041 675.0
64.3566 651.0
64.4091 653.0
64.4617 677.0
64.5142 632.0
64.5667 665.0
64.6192 658.0
64.6717 660.0
64.7243 664.0
64.7768 664.0
64.8293 638.0
64.8818 720.0
64.9343 704.0
64.9869 647.0